Folder: academic-semester-4/AE2200/Modul 3

Note: README.md
# academic-semester-4
A little bit of project from 4th semester of Aerospace Engineering in BIT

File: Ranisa.csv
Time (s),Load (N),Extension (mm)
0,0,0
1.53986,7.7516,0.006609221
3.07972,25.8937,0.0197988
4.61958,46.9784,0.0337148
6.15945,64.8443,0.0447433
7.69931,87.83,0.0592398
9.23917,104.281,0.0717949
10.779,122.732,0.0842661
12.3189,140.576,0.0969553
13.8588,160.59,0.109557
15.3986,177.661,0.122491
16.9385,195.044,0.134432
18.4783,215.41,0.148547
20.0182,231.555,0.159659
21.5581,253.544,0.173522
23.0979,272.9,0.185656
24.6378,293.745,0.199208
26.1776,312.128,0.211023
27.7175,332.236,0.223804
29.2574,353.859,0.237358
30.7972,371.054,0.249271
32.3371,393.715,0.263505
33.877,413.565,0.274956
35.4168,434.032,0.2891934
36.9567,453.776,0.300613
38.4965,475.052,0.313887
40.0364,494.948,0.326418
41.5763,513.891,0.337963
43.1161,536.813,0.352297
44.656,554.98,0.364409
46.1958,576.078,0.377849
47.7357,596.147,0.389683
49.2756,619.098,0.403736
50.8154,636.649,0.414881
52.3553,658.506,0.427773
53.8952,680.259,0.442006
55.435,700.305,0.45326
56.9749,723.241,0.467148
58.5147,742.965,0.478964
60.0546,764.194,0.492444
61.5945,783.233,0.50438
63.1343,805.716,0.517643
64.6742,827.171,0.530632
66.214,845.956,0.542638
67.7539,869.859,0.556906
69.2938,889.462,0.567614
70.8336,909.954,0.581695
72.3735,931.102,0.593353
73.9134,952.094,0.606764
75.4532,972.692,0.619313
76.9931,994.707,0.632465
78.5329,1015.63,0.645878
80.0728,1035.92,0.658259
81.6127,1057.72,0.671645
83.1525,1079.15,0.68378
84.6924,1097.91,0.696345
86.2322,1118.35,0.708661
87.7721,1139.34,0.722245
89.312,1161.15,0.734695
90.8518,1180.18,0.747448
92.3917,1204.87,0.76026
93.9316,1222.74,0.77244
95.4714,1245.46,0.786688
97.0113,1263.3,0.798442
98.5511,1285.52,0.812419
100.091,1303.35,0.823185
101.631,1328.13,0.837421
103.171,1347.18,0.850131
104.711,1367.41,0.861915
106.25,1390.41,0.877111
107.79,1408.96,0.887548
109.33,1429.53,0.90057
110.87,1447.6,0.912372
112.41,1471.01,0.925543
113.95,1489.65,0.937966
115.49,1508.1,0.950098
117.029,1533.18,0.964919
118.569,1552.89,0.977164
120.109,1573.26,0.990671
121.649,1590.68,1.00192
123.189,1612.27,1.01513
124.729,1632.02,1.02786
126.269,1653.32,1.04029
127.809,1675.17,1.05418
129.348,1692.49,1.06563
130.888,1715.94,1.07985
132.428,1734.51,1.09197
133.968,1754.58,1.10469
135.508,1774.16,1.11642
137.048,1795.04,1.12934
138.588,1816.25,1.14214
140.127,1835.54,1.15469
141.667,1859.56,1.16946
143.207,1877.64,1.18101
144.747,1898.08,1.19316
146.287,1918.62,1.2065
147.827,1939.53,1.21874
149.367,1958.34,1.23176
150.906,1979.43,1.24479
152.446,2000.24,